Folder: Python_Workshop_Materials/Workshop_Day1/Data

Note: Workshop_Day1/README.txt
Workshop Day1 Thurs 8/15
		Format:
			About 3 hours with a break in the middle where we walk participants through jupyter notebook tutorials
		Outcomes:
			Participants have exposure to opening different types of files and querying the data with numpy, pandas and/or polars (.csv, .xlsx, .txt, other?) (SC)
			Participants can handle common issues when loading data (numbers are read as strings, the header shifts file lines/indexing, etc) (SC)
			Participants can manipulate data by selecting rows or columns, converting data types, dropping nan values and performing basic numerical operations (BP)
			
			Participants can use os or glob to loop through their files and perform action (BP)
			Participants can plot data from different file types in a variety of plot styles (scatter plot, bar graph, line graph, etc) in matplotlib (SC)

File: Si_Expt.txt
# Silicon Experimental X-ray Diffraction
# 2theta  Intensity
5.00	27
5.29	21
5.58	21
5.87	38
6.16	32
6.45	29
6.74	27
7.03	15
7.32	20
7.61	19
7.90	14
8.19	18
8.48	11
8.77	21
9.06	16
9.35	17
9.64	14
9.93	8
10.22	10
10.51	10
10.80	20
11.09	15
11.38	14
11.67	12
11.96	15
12.25	16
12.54	16
12.83	6
13.12	17
13.41	15
13.70	6
13.99	11
14.28	9
14.57	5
14.86	9
15.15	16
15.44	15
15.73	9
16.02	4
16.31	12
16.60	9
16.89	7
17.18	13
17.47	13
17.76	7
18.05	7
18.34	5
18.63	6
18.92	12
19.21	5
19.50	13
19.79	7
20.08	18
20.37	15
20.66	4
20.95	7
21.24	7
21.53	4
21.82	9
22.11	6
22.40	10
22.69	6
22.98	5
23.27	9
23.56	18
23.85	24
24.14	20
24.43	19
24.72	7
25.01	9
25.30	7
25.59	27
25.88	5
26.17	9
26.46	9
26.75	10
27.04	7
27.33	6
27.62	21
27.91	20
28.20	29
28.49	1285
28.78	23
29.07	16
29.36	18
29.65	11
29.94	8
30.23	9
30.52	13
30.81	7
31.10	11
31.39	12
31.68	6
31.97	7
32.26	12
32.55	8
32.84	5
33.13	5
33.42	7
33.71	14
34.00	6
34.29	13
34.58	11
34.87	7
35.16	7
35.45	18
35.74	2
36.03	4
36.32	10
36.61	12
36.90	6
37.19	8
37.48	7
37.77	9
38.06	10
38.35	2
38.64	11
38.93	8
39.22	5
39.51	10
39.80	10
40.09	5
40.38	11
40.67	8
40.96	4
41.25	8
41.54	7
41.83	4
42.12	7
42.41	12
42.70	8
42.99	10
43.28	9
43.57	16
43.86	9
44.15	4
44.44	8
44.73	11
45.02	6
45.31	9
45.60	11
45.89	8
46.18	15
46.47	7
46.76	14
47.05	45
47.34	394
47.63	24
47.92	15
48.21	12
48.50	20
48.79	14
49.08	9
49.37	13
49.66	11
49.95	15
50.24	13
50.53	14
50.82	17
51.11	14
51.40	9
51.69	5
51.98	4
52.27	8
52.56	12
52.85	5
53.14	3
53.43	5
53.72	8
54.01	6
54.30	10
54.59	6
54.88	7
55.17	8
55.46	17
55.75	14
56.04	49
56.33	101
56.62	10
56.91	8
57.20	11
57.49	10
57.78	9
58.07	10
58.36	12
58.65	6
58.94	4
59.23	5
59.52	7
59.81	13
60.10	7
60.39	9
60.68	5
60.97	10
61.26	8
61.55	7
61.84	7
62.13	6
62.42	7
62.71	4
63.00	8
63.29	7
63.58	6
63.87	8
64.16	10
64.45	6
64.74	4
65.03	5
65.32	11
65.61	4
65.90	1
66.19	3
66.48	5
66.77	4
67.06	14
67.35	7
67.64	7
67.93	10
68.22	8
68.51	10
68.80	5
69.09	34
69.38	18
69.67	8
69.96	10
70.25	7
70.54	5
70.83	12
71.12	9
71.41	4
71.70	6
71.99	4
72.28	5
72.57	4
72.86	6
73.15	4
73.44	4
73.73	11
74.02	4
74.31	3
74.60	5
74.89	4
75.18	8
75.47	5
75.76	6
76.05	10
76.34	100
76.63	62
76.92	7
77.21	7
77.50	11
77.79	12
78.08	5
78.37	7
78.66	7
78.95	9
79.24	10
79.53	7
79.82	2
80.11	10
80.40	4
80.69	13
80.98	6
81.27	4
81.56	4
81.85	4
82.14	7
82.43	5
82.72	6
83.01	9
83.30	4
83.59	8
83.88	6
84.17	5
84.46	8
84.75	9
85.04	2
85.33	10
85.62	4
85.91	8
86.20	0
86.49	5
86.78	6
87.07	7
87.36	12
87.65	7
87.94	31
88.23	37
88.52	13
88.81	11
89.10	1
89.39	5
89.68	4
89.97	3
90.00	10